Folder: Ultrasonic-Study-of-Water-Adsorbed-in-Nanoporous-Glasses

Note: ABSTRACT.md
# Ultrasonic-Study-of-Water-Adsorbed-in-Nanoporous-Glasses
Tabulated data for the figures in the main text.

Abstract:
Thermodynamic properties of fluids confined in nanopores differ from those observed in the bulk. To investigate the effect of nanoconfinement on water compressibility, we performed water sorption experiments on two nanoporous glass samples while concomitantly measuring the speed of longitudinal and shear ultrasonic waves in these samples. These measurements yield the longitudinal and shear moduli of the water laden nanoporous glass as a function of relative humidity that we utilized in the Gassmann theory to infer the bulk modulus of the confined water. This analysis shows  that the bulk modulus (inverse of compressibility) of confined water is noticeably higher than that of the bulk water at the same temperature. Moreover, the modulus exhibits a linear dependence on the Laplace pressure. The results for water, which is a polar fluid, agree with previous experimental and numerical data reported for non-polar fluids. This similarity suggests that irrespective of intermolecular forces, confined fluids are stiffer than bulk fluids. Accounting for fluid stiffening in nanopores may be important for accurate interpretation of wave propagation measurements in fluid-filled nanoporous media, including in petrophysics, catalysis, and other applications, such as in porous materials characterization.

Note: Fig5.txt
Pore Diameter (A), Sample V (cm^3 / g / A), Sample C (cm^3 / g / A)

14.98, 0.000615935, 0.000786
15.64, 0.00060762, 0.000718
16.31, 0.000477474, 0.00041
16.97, 0.000316641, 9.07e-05
17.8, 0.000116078, 0.0
18.68, 8.10509e-05, 0.0
19.48, 0.0, 0.0
20.27, 0.0, 0.0
21.07, 0.0, 0.0
21.86, 0.0, 0.0
22.66, 0.0, 0.0
23.45, 0.0, 0.0
24.25, 0.0, 0.0
25.04, 0.0, 0.0
25.83, 0.0, 0.0
27.03, 0.0, 0.0
28.22, 0.0, 0.0
29.41, 0.0, 0.0
30.6, 0.0, 0.0
31.79, 0.0, 1.28e-05
32.98, 0.0, 0.00018
34.18, 0.0, 0.000364
35.37, 9.51875e-05, 0.000597
36.56, 0.000241567, 0.000604
37.75, 0.000428549, 0.000806
39.34, 0.00044105, 0.0007
40.93, 0.000614753, 0.000928
42.52, 0.000740339, 0.00103
44.11, 0.000907361, 0.00127
45.7, 0.000986328, 0.0013
47.28, 0.00115976, 0.00156
48.87, 0.00153746, 0.00216
50.86, 0.00154611, 0.00203
52.85, 0.00185831, 0.0023
54.83, 0.00216293, 0.00265
56.82, 0.00256339, 0.00304
58.8, 0.0031398, 0.00369
60.79, 0.00381488, 0.00439
63.17, 0.00361476, 0.00403
65.56, 0.0048347, 0.00557
67.94, 0.00469975, 0.0052
70.32, 0.00567334, 0.00613
73.1, 0.00626294, 0.00664
75.88, 0.00556353, 0.00582
78.67, 0.00442513, 0.00429
81.45, 0.00524498, 0.00469
84.62, 0.00506828, 0.00451
87.8, 0.00416135, 0.00364
90.98, 0.00387102, 0.00343
94.16, 0.00205101, 0.00148
97.73, 0.000821705, 0.000205
101.31, 0.000745688, 0.000171
104.88, 0.000709341, 0.000163
108.85, 0.000571634, 0.000131
112.83, 0.00055263, 0.00013
116.8, 0.000194439, 9.93e-05
121.17, 0.0, 8.2e-06
125.54, 0.0, 1.6e-06
129.91, 0.0, 3.51e-07
134.67, 0.0, 1.29e-06
139.44, 0.0, 1.19e-07
144.60001, 0.0, 0.0
149.77, 0.0, 1.41e-06
155.33, 0.0, 2.52e-07
160.89, 0.0, 6.37e-06
166.85001, 0.0, 8.84e-06
172.81, 0.0, 7.93e-06
179.16, 0.0, 6.82e-06
185.52, 0.0, 7.44e-06
192.27, 0.0, 6.34e-06
199.02, 0.0, 5.42e-06
206.17, 0.0, 1.79e-05
213.72, 0.0, 4.16e-05
221.27, 0.0, 3.49e-05
229.21001, 0.0, 3.66e-05
237.55, 0.0, 3.8e-05
246.28999, 0.0, 3.45e-05
255.03, 0.0, 3.18e-05
264.17001, 0.0, 2.99e-05
273.70001, 0.0, 2.31e-05
283.63, 0.0, 1.84e-05
293.95999, 0.0, 7.93e-06
304.67999, 4.20068e-06, 3.05e-06
315.41, 2.6997e-06, 2.74e-06
326.53, 0.0, 2.22e-06
338.04999, 0.0, 2.32e-06
349.97, 0.0, 2.52e-06
362.28, 0.0, 1.46e-06
374.98999, 0.0, 1.72e-06
388.10001, 0.0, 1.81e-06
401.60001, 0.0, 1.71e-06
415.51001, 0.0, 1.39e-06
429.81, 0.0, 1.12e-06
444.5, 0.0, 1.17e-06
459.60001, 0.0, 1.03e-06
475.09, 0.0, 8.25e-07
490.98001, 0.0, 8.38e-07
507.26999, 0.0, 1.01e-06
523.95001, 0.0, 3.72e-07
541.03003, 0.0, 8.02e-07
558.51001, 0.0, 5.98e-07
576.38, 0.0, 5.38e-07
594.65002, 0.0, 5.13e-07
613.32001, 0.0, 4.56e-07
632.39001, 0.0, 5.7e-07
651.84998, 0.0, 6.26e-07
671.71002, 0.0, 1.21e-06
691.96997, 0.0, 6.93e-07
712.63, 0.0, 0.0
733.67999, 0.0, 0.0
755.13, 1.36854e-07, 0.0
776.97998, 1.13958e-06, 8.11e-07

Note: README.md
# Ultrasonic-Study-of-Water-Adsorbed-in-Nanoporous-Glasses
Tabulated data for the figures in the main text.

File: Fig4.txt
Adsorption
Relative Pressure, Sample V (mmol/g), Sample C (mmol/g)

0.00814, 1.03534, 1.13188
0.0181, 1.18767, 1.29377
0.0234, 1.23666, 1.34121
0.0282, 1.27782, 1.39333
0.0395, 1.35272, 1.45768
0.049, 1.4031, 1.51859
0.0596, 1.45158, 1.56965
0.0696, 1.49164, 1.61028
0.0734, 1.50438, 1.62858
0.0796, 1.52849, 1.65484
0.0907, 1.56601, 1.68833
0.1, 1.59376, 1.7252
0.15, 1.72938, 1.87145
0.2, 1.84673, 2.00376
0.249, 1.96152, 2.12963
0.3, 2.07709, 2.26069
0.35, 2.20084, 2.39466
0.4, 2.33265, 2.5408
0.45, 2.47879, 2.70712
0.5, 2.64589, 2.90094
0.551, 2.85574, 3.12657
0.6, 3.11794, 3.42193
0.649, 3.47372, 3.8143
0.7, 4.00143, 4.38415
0.75, 4.87351, 5.27491
0.799, 5.96897, 6.25434
0.851, 6.27377, 6.35027
0.9, 6.2933, 6.37384
0.926, 6.30229, 6.39284
0.95, 6.31023, 6.46328
0.96, 6.32044, 6.48502
0.971, 6.32311, 6.48593
0.981, 6.3259, 6.48674
0.999, 6.34429, 6.49105

Desorption
Relative Pressure, Sample V (mmol/g), Sample C (mmol/g)

0.999, 6.34429, 6.49105
0.951, 6.30076, 6.48342
0.954, 6.30037, 6.48182
0.947, 6.3017, 6.47986
0.923, 6.29942, 6.47138
0.898, 6.29385, 6.43635
0.85, 6.28296, 6.37326
0.799, 6.27342, 6.33936
0.75, 6.25609, 6.30594
0.696, 6.23558, 6.27298
0.65, 6.21869, 6.23099
0.601, 3.71863, 3.71869
0.551, 3.07695, 3.1858
0.501, 2.66613, 2.90683
0.449, 2.47197, 2.70973
0.399, 2.31869, 2.54182
0.35, 2.19045, 2.39252
0.299, 2.07065, 2.26334
0.25, 1.96221, 2.13847
0.2, 1.85152, 2.01433
0.151, 1.73678, 1.88655
0.1, 1.60305, 1.74278
0.0506, 1.42811, 1.55305
0.0259, 1.28539, 1.39926

File: Fig6.csv
Sample V (Adsorption),,,,,,,,,Sample V (Desorption),,,,,,,,,Sample C (Adsorption),,,,,,,,,Sample C (Desorption),,,,,,,
Nominal Values,,,,,,,,,Nominal Values,,,,,,,,,Nominal Values,,,,,,,,,Nominal Values,,,,,,,
Relative Pressure,Mass (kg),Relative Adsorption (g_w / g),P_Speed (m/s),S_Speed (m/s),Longitudinal Modulus (GPa),Shear Modulus (GPa),Bulk Modulus (GPa),,Relative Pressure,Mass (kg),Relative Adsorption (g_w / g),P_Speed (m/s),S_Speed (m/s),Longitudinal Modulus (GPa),Shear Modulus (GPa),Bulk Modulus (GPa),,Relative Pressure,Mass (kg),Relative Adsorption (g_w / g),P_Speed (m/s),S_Speed (m/s),Longitudinal Modulus (GPa),Shear Modulus (GPa),Bulk Modulus (GPa),,Relative Pressure,Mass (kg),Relative Adsorption (g_w / g),P_Speed (m/s),S_Speed (m/s),Longitudinal Modulus (GPa),Shear Modulus (GPa),Bulk Modulus (GPa)
0,0.001136,0,,,,,,,0.98,0.001402,0.2338,3372.42,1916.15,19.8226,6.39932,11.2902,,0,0.001616,0,,,,,,,0.98,0.002008,0.2427,3303.57,1890.59,20.3531,6.66593,11.4652
0.12,0.001181,0.0396,3404.96,2100.74,17.026,6.47921,8.38141,,0.93,0.001396,0.2285,3370.63,1916.72,19.7154,6.37533,11.215,,0.12,0.001668,0.0321,3294.97,2057.03,16.8165,6.55412,8.07764,,0.93,0.002001,0.2382,3298.65,1892.19,20.2198,6.65327,11.3488
0.3,0.001194,0.0508,3408.61,2100.04,17.246,6.5462,8.51641,,0.88,0.001393,0.2258,3353.19,1917.53,19.47,6.36701,10.9806,,0.3,0.001689,0.0451,3293.74,,17.0155,,,,0.88,0.001995,0.2346,3281.55,1894.7,19.9527,6.65155,11.0839
0.45,0.001205,0.0609,3399.75,2091.74,17.3217,6.55438,8.57133,,0.86,0.001392,0.225,3345.77,1918.46,19.3714,6.36905,10.8793,,0.45,0.00171,0.0581,3281.55,2051.37,17.0997,6.68222,8.19007,,0.86,0.001992,0.2323,3279.93,1894.7,19.895,6.63889,11.0431
0.53,0.00121,0.0653,3390.41,2084.87,17.2981,6.53843,8.57175,,0.84,0.001398,0.2301,3340.49,1918.46,19.3907,6.39558,10.8633,,0.53,0.001719,0.0637,3270.99,,17.0793,,,,0.84,0.001987,0.2297,3277.9,1888.6,19.8286,6.58232,11.0521
0.58,0.001218,0.0723,3390.41,2074.52,17.4124,6.51915,8.72024,,0.81,0.001385,0.2189,3340.49,1918.46,19.2132,6.33702,10.7638,,0.58,0.001729,0.0699,3262.21,,17.0866,,,,0.81,0.001984,0.2276,3275.48,1889.4,19.7664,6.57695,10.9971
0.75,0.001259,0.1078,3335.21,2041.84,17.4073,6.52422,8.70834,,0.77,0.001378,0.2124,3336.98,1919.62,19.0703,6.31078,10.656,,0.75,0.001788,0.1064,3198.62,2004.95,16.9884,6.67477,8.08866,,0.77,0.001977,0.2231,3270.64,1895.5,19.6355,6.59513,10.842
0.77,0.001267,0.115,3317.06,2027.76,17.3306,6.4765,8.69524,,0.75,0.001377,0.2121,3293.71,1928.76,18.5749,6.3696,10.0821,,0.77,0.001808,0.1187,3171.14,,16.8836,,,,0.75,0.001958,0.2119,3262.21,1895,19.3546,6.53097,10.6466
0.81,0.001307,0.1502,3258.2,1992.5,17.2488,6.45064,8.64799,,0.58,0.001223,0.0767,3436.29,2062.4,17.9603,6.46961,9.33412,,0.81,0.001867,0.1553,3164.54,,17.3621,,,,0.58,0.001733,0.0724,3275.48,2037.36,17.2667,6.68031,8.35961
0.84,0.00132,0.1616,3238.88,1979.61,17.2131,6.43029,8.63939,,0.53,0.001219,0.0728,3390.41,2075.2,17.4196,6.5261,8.71813,,0.84,0.001887,0.1679,3104.47,1975.74,16.8926,6.84199,7.76998,,0.53,0.001731,0.0711,3290.08,,17.3998,,
0.86,0.001356,0.1933,3220.74,1967.09,17.4864,6.52287,8.78923,,0.45,0.001205,0.0602,3399.75,2079.92,17.3102,6.48052,9.57491,,0.86,0.00191,0.1819,3087.16,,16.9039,,,,0.45,0.00171,0.0581,3302.34,,17.3171,,
0.88,0.001382,0.2166,3192.68,1927.67,17.5176,6.38595,9.003,,0.3,0.001194,0.0508,3408.61,2086.11,17.246,6.45964,8.63317,,0.88,0.001975,0.2221,3130.81,1898.22,17.9769,6.60837,9.16576,,0.3,0.00169,0.0457,3320.02,,17.2983,,
0.93,0.001404,0.2356,3370.63,1916.72,19.8298,6.41232,11.2801,,0.12,0.001183,0.0407,3406.79,2102.82,17.063,6.50308,8.3967,,0.93,0.002,0.2377,3298.65,,20.2117,,,,0.12,0.001673,0.0351,3323.4,2057.03,17.1581,6.57337,8.39365
0.98,0.001402,0.2338,3372.42,1916.15,19.8226,6.39932,11.2902,,,,,,,,,,,0.98,0.002008,0.2427,3303.57,1890.59,20.3531,6.66593,11.4652,,,,,,,,,
,,,,,,,,,,,,,,,,,,,,,,,,,,,,,,,,,,
Uncertainty (1 stdev),,,,,,,,,Uncertainty (1 stdev),,,,,,,,,Uncertainty (1 stdev),,,,,,,,,Uncertainty (1 stdev),,,,,,,
Relative Pressure,Mass (kg),Relative Adsorption (g_w / g),P_Speed (m/s),S_Speed (m/s),Longitudinal Modulus (GPa),Shear Modulus (GPa),Bulk Modulus (GPa),,Relative Pressure,Mass (kg),Relative Adsorption (g_w / g),P_Speed (m/s),S_Speed (m/s),Longitudinal Modulus (GPa),Shear Modulus (GPa),Bulk Modulus (GPa),,Relative Pressure,Mass (kg),Relative Adsorption (g_w / g),P_Speed (m/s),S_Speed (m/s),Longitudinal Modulus (GPa),Shear Modulus (GPa),Bulk Modulus (GPa),,Relative Pressure,Mass (kg),Relative Adsorption (g_w / g),P_Speed (m/s),S_Speed (m/s),Longitudinal Modulus (GPa),Shear Modulus (GPa),Bulk Modulus (GPa)
0,1.50E-07,0.0009,,,,,,,0,1.50E-07,0.0011,0,0,0.0629551,0.02032374,0.0358567,,0,1.50E-07,0.0006,,,,,,,0,1.50E-07,0.0008,0.000320513,2.18E-05,0.0657132,0.0289889,0.0270614
0,1.50E-07,0.0009,0,0.205715,0.0540858,0.0203422,0.0270672,,0,1.50E-07,0.0011,4.55E-13,0,0.0626149,0.0202476,0.0356181,,0,1.50E-07,0.0006,7.90E-05,3.08E-05,0.0543011,0.0257478,0.0199706,,0,1.50E-07,0.0008,0.000283572,0,0.0652829,0.0289136,0.0267314
0,1.50E-07,0.0009,0,6.86E-05,0.0547838,0.0205332,0.0274062,,0,1.50E-07,0.0011,0.708526,0.283717,0.0623805,0.0203088,0.0359193,,0,1.50E-07,0.0007,4.55E-13,,0.0549433,,,,0,1.50E-07,0.0008,0,0.212891,0.0644205,0.0282522,0.0269172
0,1.50E-07,0.0009,0.637287,0,0.0554052,0.0206221,0.0282828,,0,1.50E-07,0.0011,4.55E-13,3.38E-05,0.06152237,0.0202277,0.034552,,0,1.50E-07,0.0007,0,0,0.0552146,0.0261807,0.020307,,0,1.50E-07,0.0008,0.572324,0.249253,0.0646085,0.0280456,0.0279425
0,1.50E-07,0.0009,4.55E-13,6.59E-05,0.0549481,0.0205858,0.0275003,,0,1.50E-07,0.0011,0.000162893,3.45E-05,0.0615836,0.0203119,0.034501,,0,1.50E-07,0.0007,0.545635,,0.055442,,,,0,1.50E-07,0.0008,0,0.373942,0.0640199,0.0280795,0.0270877
0,1.50E-07,0.001,0.000289454,0,0.0553107,0.0207081,0.0276999,,0,1.50E-07,0.0011,0.000159601,2.27E-13,0.0610203,0.0201261,0.0341854,,0,1.50E-07,0.0007,0,,0.0551718,,,,0,1.50E-07,0.0008,8.46E-05,0.471969,0.0638192,0.0279663,0.0273304
0,1.50E-07,0.001,0.000276836,2.27733,0.05529175,0.0253229,0.0337883,,0,1.50E-07,0.0011,0.000129947,2.27E-13,0.0605671,0.020043,0.0338432,,0,1.50E-07,0.0007,0,0,0.05485339,0.026005,0.0201801,,0,1.50E-07,0.0008,0,0.228359,0.0633969,0.0277391,0.0266004
0,1.50E-07,0.001,1.93406,1.19727,0.0586401,0.0219471,0.0357102,,0,1.50E-07,0.0011,0.000156302,0.276145,0.05899367,0.0203118,0.0321129,,0,1.50E-07,0.0007,0,,0.0545147,,,,0,1.50E-07,0.0008,0,0.228201,0.0624901,0.0274704,0.0260511
0,1.50E-07,0.001,0.000685547,3.39E-05,0.0547856,0.0204885,0.0274677,,0,1.50E-07,0.001,0,4.22E-05,0.0570505,0.0205506,0.0296497,,0,1.50E-07,0.0007,0.421399,,0.0562488,,,,0,1.50E-07,0.0007,8.44E-05,0.213654,0.0557533,0.0264425,0.0206609
0,1.50E-07,0.001,0.800059,0.267277,0.0553289,0.0204973,0.0288207,,0,1.50E-07,0.001,4.55E-13,6.59E-05,0.0553334,0.0207302,0.0276931,,0,1.50E-07,0.0007,0,3.57E-05,0.0545424,0.0258077,0.0201322,,0,1.50E-07,0.0007,0,,0.0561832,,
0,1.50E-07,0.0011,2.0381,1.02079,0.0597846,0.021795,0.0367492,,0,1.50E-07,0.0009,0.637287,0,0.0553684,0.0206084,0.0282641,,0,1.50E-07,0.0007,4.55E-13,,0.0545785,,,,0,1.50E-07,0.0007,7.94E-05,,0.0559166,,
[...]
,,,,,,,,,0.84,0.001398,0.2301,3340.49,1918.46,19.3907,6.39558,10.8633,,0.88,0.001975,0.2221,3130.81,1898.22,17.9769,6.60837,9.16576,,0.84,0.001987,0.2297,3277.9,1888.6,19.8286,6.58232,11.0521
,,,,,,,,,0.81,0.001385,0.2189,3340.49,1918.46,19.2132,6.33702,10.7638,,0.98,0.002008,0.2427,3303.57,1890.59,20.3531,6.66593,11.4652,,0.81,0.001984,0.2276,3275.48,1889.4,19.7664,6.57695,10.9971
,,,,,,,,,0.77,0.001378,0.2124,3336.98,1919.62,19.0703,6.31078,10.656,,,,,,,,,,,0.77,0.001977,0.2231,3270.64,1895.5,19.6355,6.59513,10.842
,,,,,,,,,0.75,0.001377,0.2121,3293.71,1928.76,18.5749,6.3696,10.0821,,,,,,,,,,,0.75,0.001958,0.2119,3262.21,1895,19.3546,6.53097,10.6466
,,,,,,,,,0.58,0.001223,0.0767,3436.29,2062.4,17.9603,6.46961,9.33412,,,,,,,,,,,0.58,0.001733,0.0724,3275.48,2037.36,17.2667,6.68031,8.35961
,,,,,,,,,0.45,0.001205,0.0602,3399.75,2079.92,17.3102,6.48052,9.57491,,,,,,,,,,,0.12,0.001673,0.0351,3323.4,2057.03,17.1581,6.57337,8.39365
,,,,,,,,,0.12,0.001183,0.0407,3406.79,2102.82,17.063,6.50308,8.3967,,,,,,,,,,,,,,,,,,
,,,,,,,,,,,,,,,,,,Uncertainty (1 stdev),,,,,,,,,Uncertainty (1 stdev),,,,,,,
,,,,,,,,,Uncertainty (1 stdev),,,,,,,,,Relative Pressure,Mass (kg),Relative Adsorption (g_w / g),P_Speed (m/s),S_Speed (m/s),Longitudinal Modulus (GPa),Shear Modulus (GPa),Bulk Modulus (GPa),,Relative Pressure,Mass (kg),Relative Adsorption (g_w / g),P_Speed (m/s),S_Speed (m/s),Longitudinal Modulus (GPa),Shear Modulus (GPa),Bulk Modulus (GPa)
,,,,,,,,,Relative Pressure,Mass (kg),Relative Adsorption (g_w / g),P_Speed (m/s),S_Speed (m/s),Longitudinal Modulus (GPa),Shear Modulus (GPa),Bulk Modulus (GPa),,0,1.50E-07,0.0006,7.90E-05,3.08E-05,0.0543011,0.0257478,0.0199706,,0,1.50E-07,0.0008,0.000320513,2.18E-05,0.0657132,0.0289889,0.0270614
,,,,,,,,,0,1.50E-07,0.0011,0,0,0.0629551,0.02032374,0.0358567,,0,1.50E-07,0.0007,0,0,0.0552146,0.0261807,0.020307,,0,1.50E-07,0.0008,0.000283572,0,0.0652829,0.0289136,0.0267314
,,,,,,,,,0,1.50E-07,0.0011,4.55E-13,0,0.0626149,0.0202476,0.0356181,,0,1.50E-07,0.0007,0,0,0.05485339,0.026005,0.0201801,,0,1.50E-07,0.0008,0,0.212891,0.0644205,0.0282522,0.0269172
,,,,,,,,,0,1.50E-07,0.0011,0.708526,0.283717,0.0623805,0.0203088,0.0359193,,0,1.50E-07,0.0007,0,3.57E-05,0.0545424,0.0258077,0.0201322,,0,1.50E-07,0.0008,0.572324,0.249253,0.0646085,0.0280456,0.0279425
,,,,,,,,,0,1.50E-07,0.0011,4.55E-13,3.38E-05,0.06152237,0.0202277,0.034552,,0,1.50E-07,0.0008,0.000113841,4.98E-05,0.0580418,0.026617,0.0225524,,0,1.50E-07,0.0008,0,0.373942,0.0640199,0.0280795,0.0270877
,,,,,,,,,0,1.50E-07,0.0011,0.000162893,3.45E-05,0.0615836,0.0203119,0.034501,,0,1.50E-07,0.0008,0.000320513,2.18E-05,0.0657132,0.0289889,0.0270614,,0,1.50E-07,0.0008,8.46E-05,0.471969,0.0638192,0.0279663,0.0273304
,,,,,,,,,0,1.50E-07,0.0011,0.000159601,2.27E-13,0.0610203,0.0201261,0.0341854,,,,,,,,,,,0,1.50E-07,0.0008,0,0.228359,0.0633969,0.0277391,0.0266004
,,,,,,,,,0,1.50E-07,0.0011,0.000129947,2.27E-13,0.0605671,0.020043,0.0338432,,,,,,,,,,,0,1.50E-07,0.0008,0,0.228201,0.0624901,0.0274704,0.0260511
,,,,,,,,,0,1.50E-07,0.0011,0.000156302,0.276145,0.05899367,0.0203118,0.0321129,,,,,,,,,,,0,1.50E-07,0.0007,8.44E-05,0.213654,0.0557533,0.0264425,0.0206609
,,,,,,,,,0,1.50E-07,0.001,0,4.22E-05,0.0570505,0.0205506,0.0296497,,,,,,,,,,,0,1.50E-07,0.0006,0,2.96E-05,0.0554043,0.0261978,0.0204739
,,,,,,,,,0,1.50E-07,0.0009,0.637287,0,0.0553684,0.0206084,0.0282641,,,,,,,,,,,,,,,,,,
,,,,,,,,,0,1.50E-07,0.0009,0,4.34E-05,0.0542033,0.0203375,0.0270867,,,,,,,,,,,,,,,,,,

File: Fig7.csv
Amberg et al (1952),,,Markova et al (2000),
Adsorption,,,Adsorption,
Relative Pressure,Mass Adsorbed (g),,Relative Pressure,Mass Adsorbed (g)
0.0032,0.00477,,0.006324111,0.002020202
0.0231,0.0136,,0.026087,0.009343434
0.138,0.0291,,0.0600791,0.0171717
0.539,0.0628,,0.0988142,0.0217172
0.711,0.0984,,0.145455,0.0262626
0.768,0.1352,,0.200791,0.03030303
0.814,0.1918,,0.26087,0.0340909
0.84,0.2264,,0.336759,0.0388889
0.924,0.2442,,0.401581,0.0434343
0.98,0.2548,,0.4743083,0.0494949
,,,0.533597,0.05479798
Desorption,,,0.581818,0.0606061
Relative Pressure,Mass Adsorbed (g),,0.633992,0.06969697
0.84,0.2326,,0.673518,0.0787879
0.73,0.2208,,0.70751,0.0906566
0.676,0.096,,0.740711,0.106313
0.66,0.0858,,0.763636,0.121717
,,,0.781028,0.140657
,,,0.793676,0.160101
,,,0.803162,0.178788
,,,0.812648,0.19899
,,,0.823715,0.217172
,,,0.839526,0.229293
,,,0.865613,0.234343
,,,0.899605,0.237626

File: Fig8.csv
Sample V (Adsorption),,,Sample V (Desorption),,,Sample C (Adsorption),,,Sample C (Desorption),
Nominal Values,,,Nominal Values,,,Nominal Values,,,Nominal Values,
Relative Pressure,Bulk Modulus (GPa),,Relative Pressure,Bulk Modulus (GPa),,Relative Pressure,Bulk Modulus (GPa),,Relative Pressure,Bulk Modulus (GPa)
0,,,0.99,11.2902,,0,,,0.98,11.4652
0.12,8.50421,,0.93,11.215,,0.12,8.07764,,0.93,11.3488
0.3,8.62751,,0.88,10.9806,,0.3,,,0.88,11.0839
0.45,8.66573,,0.86,10.8793,,0.45,8.19007,,0.86,11.0431
0.53,8.65734,,0.84,10.8633,,0.53,,,0.84,11.0521
0.58,8.72024,,0.81,10.7638,,0.58,,,0.81,10.9971
0.75,8.70834,,0.77,10.656,,0.75,8.08866,,0.77,10.842
0.77,8.69524,,0.75,10.0821,,0.77,,,0.75,10.6466
0.81,8.64799,,0.58,9.33412,,0.81,,,0.58,8.35961
0.84,8.63939,,0.53,8.71813,,0.84,7.76998,,0.53,
0.86,8.78923,,0.45,8.65998,,0.86,,,0.45,
0.88,9.003,,0.3,8.63317,,0.88,9.16576,,0.3,
0.93,11.2801,,0.12,8.52681,,0.93,,,0.12,8.39365
0.99,11.2902,,,,,0.98,11.4652,,,
,,,,,,,,,,
Uncertainty (1 stdev),,,Uncertainty (1 stdev),,,Uncertainty (1 stdev),,,Uncertainty (1 stdev),
Relative Pressure,Bulk Modulus (GPa),,Relative Pressure,Bulk Modulus (GPa),,Relative Pressure,Bulk Modulus (GPa),,Relative Pressure,Bulk Modulus (GPa)
0,,,0,0.0358567,,0,,,0,0.0270614
0,0.0270672,,0,0.0356181,,0,0.0199706,,0,0.0267314
0,0.0274062,,0,0.0359193,,0,,,0,0.0269172
0,0.0282828,,0,0.034552,,0,0.020307,,0,0.0279425
0,0.0275003,,0,0.034501,,0,,,0,0.0270877
0,0.0276999,,0,0.0341854,,0,,,0,0.0273304
0,0.0337883,,0,0.0338432,,0,0.0201801,,0,0.0266004
0,0.0357102,,0,0.0321129,,0,,,0,0.0260511
0,0.0274677,,0,0.0296497,,0,,,0,0.0206609
0,0.0288207,,0,0.0276931,,0,0.0201322,,0,
0,0.0367492,,0,0.0282641,,0,,,0,
0,0.03251697,,0,0.02742415,,0,0.0225524,,0,
0,0.0358245,,0,0.0270867,,0,,,0,0.0204739
0,0.0358567,,,,,0,0.0270614,,,